File: xas_beamline_data/NSLS6BM_2019.dat
# XDI/1.0 BlueSky/1.5.0
# Beamline.name: BMM (06BM) -- Beamline for Materials Measurement
# Beamline.xray_source: NSLS-II three-pole wiggler
# Beamline.collimation: paraboloid mirror, 5 nm Rh on 30 nm Pt
# Beamline.focusing: not in use
# Beamline.harmonic_rejection: flat mirror, Si stripe, pitch = 2.00 mrad
# Detector.I0: 10 cm N2
# Detector.I1: 25 cm N2
# Detector.I2: 25 cm N2
# Detector.fluorescence: SII Vortex ME4 (4-element silicon drift)
# Detector.deadtime_correction: DOI: 10.1107/S0909049510009064
# Element.symbol: V
# Element.edge: K
# Facility.name: NSLS-II
# Facility.current: 0.0 mA
# Facility.energy: 3.0 GeV
# Facility.mode: top-off
# Facility.GUP: 303443
# Facility.SAF: 303928
# Mono.name: Si(111)
# Mono.d_spacing: 3.13564 Ã…
# Mono.encoder_resolution: 0.0000050 deg/ct
# Mono.angle_offset: 16.0568 deg
# Mono.scan_mode: pseudo channel cut
# Mono.scan_type: step
# Mono.direction: forward in energy
# Sample.x_position: -113.866 mm
# Sample.y_position: 95.228 mm
# Sample.name: Ca0.25V2O5
# Sample.prep: slurry dried on SS 200 mesh 1 M ZnSO4
# Scan.experimenters: Chris Patridge
# Scan.edge_energy: 5465.0
# Scan.start_time: 2019-03-21T08:45:01
# Scan.end_time: 2019-03-21T09:00:56
# Scan.transient_id: 6986
# Scan.uid: 48c3dcf1-020e-4671-8c71-cc0db04dff01
# Scan.plot_hint: (DTC1 + DTC2 + DTC3 + DTC4) / I0  --  ($8+$9+$10+$11) / $5
# Column.1: energy eV
# Column.2: requested_energy eV
# Column.3: measurement_time seconds
# Column.4: xmu
# Column.5: I0 nA
# Column.6: It nA
# Column.7: Ir nA
# Column.8: DTC1 dead-time corrected count rate
# Column.9: DTC2 dead-time corrected count rate
# Column.10: DTC3 dead-time corrected count rate
# Column.11: DTC4 dead-time corrected count rate
# Column.12: ROI1 counts
# Column.13: ICR1 counts
# Column.14: OCR1 counts
# Column.15: ROI2 counts
# Column.16: ICR2 counts
# Column.17: OCR2 counts
# Column.18: ROI3 counts
# Column.19: ICR3 counts
# Column.20: OCR3 counts
# Column.21: ROI4 counts
# Column.22: ICR4 counts
# Column.23: OCR4 counts
# ///////////
# 48 hr rest
# -----------
# energy  requested_energy  measurement_time  xmu  I0  It  Ir  DTC1  DTC2  DTC3  DTC4  ROI1  ICR1  OCR1  ROI2  ICR2  OCR2  ROI3  ICR3  OCR3  ROI4  ICR4  OCR4
  5264.987  5265.000  0.500  53.1564  25.6577  0.000023  -0.006299  244.922  255.06  53.3061  810.583  243.0  957.0  950.0  256.0  948.0  952.0  53.0  1929.0  1920.0  805.0  1884.0  1873.0
  5285.012  5285.000  0.500  48.095  26.2042  -0.000158  -0.003015  259.327  183.511  43.1785  774.275  258.0  1112.0  1107.0  184.0  940.0  943.0  43.0  1982.0  1976.0  768.0  2003.0  1989.0
  5305.008  5305.000  0.500  42.4654  26.7235  0.000082  -0.004473  198.564  196.941  46.2554  693.064  197.0  1101.0  1093.0  197.0  1093.0  1094.0  46.0  2058.0  2049.0  687.0  2112.0  2096.0
  5325.006  5325.000  0.500  35.2669  27.2593  0.000132  -0.002693  167.974  138.129  31.2588  623.986  167.0  1165.0  1159.0  139.0  1018.0  1025.0  31.0  2111.0  2096.0  618.0  2142.0  2124.0
  5345.564  5345.000  0.500  33.5728  27.7381  0.000340  -0.002298  158.048  168.907  34.2404  570.048  157.0  1171.0  1164.0  170.0  1126.0  1134.0  34.0  2255.0  2242.0  565.0  2233.0  2216.0
  5364.995  5365.000  0.500  27.3987  28.5055  0.000384  -0.004649  139.913  145.721  26.1253  469.257  139.0  1195.0  1188.0  146.0  1168.0  1171.0  26.0  2265.0  2257.0  465.0  2312.0  2294.0
  5384.997  5385.000  0.500  23.9732  29.2754  0.000222  0.001097  118.074  118.784  42.2691  422.697  117.0  1315.0  1304.0  119.0  1203.0  1206.0  42.0  2382.0  2370.0  419.0  2435.0  2417.0
  5404.999  5405.000  0.500  20.7091  29.8888  -0.000576  -0.002946  100.053  113.708  40.4555  364.753  99.0  1328.0  1315.0  114.0  1229.0  1233.0  40.0  2420.0  2396.0  361.0  2467.0  2445.0
  5424.999  5425.000  0.500  18.2409  30.6142  0.000572  -0.003058  107.066  103.667  37.2415  310.456  106.0  1417.0  1404.0  104.0  1274.0  1279.0  37.0  2574.0  2561.0  307.0  2577.0  2552.0
  5437.007  5437.000  0.500  17.0831  30.9758  -0.000234  -0.001726  94.8912  108.676  35.216  290.38  94.0  1521.0  1508.0  109.0  1338.0  1343.0  35.0  2545.0  2533.0  288.0  2687.0  2669.0
  5441.005  5441.000  0.500  17.9144  31.0921  0.000484  -0.005852  126.857  105.691  41.3258  283.123  126.0  1523.0  1514.0  106.0  1355.0  1360.0  41.0  2654.0  2637.0  281.0  2659.0  2643.0
  5445.000  5445.000  0.500  18.2614  31.2112  -0.000105  -0.010397  118.576  133.354  49.4244  268.607  118.0  1492.0  1486.0  134.0  1418.0  1426.0  49.0  2677.0  2658.0  267.0  2672.0  2660.0
  5448.996  5449.000  0.500  18.3516  31.3524  0.001197  -0.005234  127.876  143.215  44.2772  259.998  127.0  1495.0  1486.0  143.0  1459.0  1458.0  44.0  2751.0  2738.0  257.0  2690.0  2663.0
  5453.000  5453.000  0.500  18.2187  31.4466  -0.000184  -0.005503  131.626  132.272  70.6235  238.394  131.0  1539.0  1533.0  133.0  1427.0  1436.0  70.0  2738.0  2718.0  236.0  2835.0  2811.0
  5455.243  5455.250  0.500  18.94  31.5147  0.000366  -0.001867  145.685  138.822  80.5788  231.802  145.0  1567.0  1561.0  139.0  1437.0  1440.0  80.0  2864.0  2848.0  230.0  2716.0  2699.0
  5455.741  5455.750  0.500  19.7969  31.5225  0.000518  -0.006692  140.851  150.908  73.5845  258.702  140.0  1543.0  1535.0  151.0  1423.0  1425.0  73.0  2826.0  2808.0  256.0  2815.0  2790.0
  5456.240  5456.250  0.500  19.5708  31.5377  0.000243  -0.011793  142.954  142.725  74.5481  256.989  142.0  1549.0  1540.0  143.0  1457.0  1461.0  74.0  2749.0  2733.0  254.0  2774.0  2746.0
  5456.742  5456.750  0.500  20.5271  31.5519  0.000836  0.001423  153.912  140.458  90.7671  262.534  153.0  1588.0  1580.0  141.0  1490.0  1497.0  90.0  2744.0  2725.0  260.0  2699.0  2677.0
  5457.244  5457.250  0.500  20.3669  31.5433  -0.000269  0.006363  152.115  168.697  81.5375  240.089  151.0  1546.0  1536.0  169.0  1512.0  1516.0  81.0  2775.0  2761.0  238.0  2800.0  2780.0
  5457.744  5457.750  0.500  21.4005  31.5499  0.000871  -0.005835  154.188  150.597  82.3326  288.067  153.0  1617.0  1606.0  151.0  1436.0  1441.0  82.0  2884.0  2877.0  285.0  2873.0  2847.0
  5458.243  5458.250  0.500  22.3266  31.5938  0.000789  -0.011748  166.775  167.57  92.7374  278.299  166.0  1598.0  1592.0  168.0  1474.0  1479.0  92.0  2821.0  2803.0  275.0  2704.0  2676.0
  5458.742  5458.750  0.500  21.8155  31.599  0.000868  -0.004472  168.911  173.248  103.784  243.404  168.0  1544.0  1537.0  174.0  1536.0  1544.0  103.0  2851.0  2834.0  241.0  2757.0  2734.0
  5459.243  5459.250  0.500  22.5362  31.5963  0.000316  -0.008082  187.291  182.548  101.741  240.478  186.0  1678.0  1668.0  183.0  1505.0  1510.0  101.0  2791.0  2775.0  238.0  2870.0  2845.0
  5459.744  5459.750  0.500  24.5369  31.5944  0.000697  -0.009455  181.063  202.298  97.4308  294.437  180.0  1609.0  1601.0  203.0  1601.0  1608.0  97.0  2801.0  2793.0  292.0  2836.0  2817.0
  5460.247  5460.250  0.500  25.2376  31.6153  0.000638  -0.010555  227.299  180.164  102.882  287.55  226.0  1672.0  1664.0  180.0  1620.0  1620.0  102.0  2867.0  2847.0  284.0  2885.0  2854.0
  5460.747  5460.750  0.500  24.7744  31.6067  0.000381  0.000991  172.407  213.917  111.769  284.944  171.0  1657.0  1645.0  214.0  1575.0  1577.0  111.0  2830.0  2815.0  281.0  2855.0  2820.0
  5461.244  5461.250  0.500  25.7483  31.6283  0.000884  -0.003031  211.376  178.041  120.825  304.135  210.0  1603.0  1594.0  178.0  1559.0  1560.0  120.0  2872.0  2857.0  301.0  2869.0  2844.0
  5461.744  5461.750  0.500  28.0901  31.6487  0.000562  -0.000861  206.713  241.747  135.025  305.531  205.0  1625.0  1613.0  242.0  1560.0  1563.0  134.0  2827.0  2810.0  302.0  2799.0  2771.0
  5462.247  5462.250  0.500  30.8937  31.6537  0.000742  -0.006337  245.56  273.416  136.551  322.37  244.0  1657.0  1648.0  273.0  1612.0  1611.0  136.0  2910.0  2903.0  320.0  2989.0  2972.0
  5462.749  5462.750  0.500  31.9591  31.662  0.000127  -0.001379  250.721  274.928  156.848  329.39  248.0  1717.0  1700.0  275.0  1670.0  1672.0  156.0  2909.0  2898.0  326.0  2876.0  2851.0
  5463.245  5463.250  0.500  33.2884  31.6749  0.000125  -0.003853  277.682  289.081  154.377  333.264  275.0  1724.0  1709.0  289.0  1609.0  1610.0  153.0  2868.0  2847.0  330.0  2941.0  2917.0
  5463.744  5463.750  0.500  39.7114  31.679  0.000230  0.000778  311.376  380.705  195.172  370.765  309.0  1812.0  1800.0  381.0  1722.0  1725.0  194.0  3004.0  2991.0  367.0  2932.0  2907.0
  5464.246  5464.250  0.500  42.6438  31.6808  0.000035  -0.007320  357.684  356.917  220.238  416.151  355.0  1854.0  1842.0  358.0  1743.0  1750.0  219.0  3075.0  3063.0  413.0  3071.0  3053.0
  5464.750  5464.750  0.500  57.2504  31.6899  0.000328  -0.005163  489.513  539.648  290.999  494.101  486.0  1975.0  1963.0  541.0  1945.0  1952.0  289.0  3118.0  3102.0  490.0  3023.0  3003.0
  5465.249  5465.250  0.500  77.2782  31.7157  0.000738  -0.012007  635.771  750.985  405.859  658.315  631.0  2237.0  2223.0  750.0  2340.0  2340.0  403.0  3249.0  3232.0  651.0  3351.0  3320.0
  5465.745  5465.750  0.500  106.606  31.7043  0.000907  0.004848  861.397  1051.15  588.975  878.341  855.0  2482.0  2467.0  1048.0  2638.0  2634.0  585.0  3576.0  3559.0  868.0  3705.0  3669.0
  5466.246  5466.250  0.500  158.129  31.7362  0.000570  -0.005228  1325.22  1475.18  899.419  1318.62  1316.0  3043.0  3027.0  1473.0  3195.0  3196.0  893.0  4147.0  4127.0  1307.0  4156.0  4129.0
  5466.748  5466.750  0.500  232.391  31.7332  0.000980  -0.007519  2022.69  2232.31  1285.35  1834.17  2008.0  3958.0  3938.0  2225.0  4112.0  4108.0  1276.0  4768.0  4746.0  1817.0  4778.0  4746.0
  5467.249  5467.250  0.500  315.878  31.7433  0.000357  0.001527  2756.14  2993.27  1826.2  2451.39  2726.0  4857.0  4817.0  2980.0  5136.0  5128.0  1808.0  5512.0  5474.0  2423.0  5522.0  5475.0
  5467.751  5467.750  0.500  387.803  31.9222  0.000448  -0.001545  3451.64  3694.15  2174.6  3059.13  3423.0  5612.0  5583.0  3675.0  5968.0  5957.0  2152.0  6197.0  6154.0  3023.0  6444.0  6391.0
  5468.250  5468.250  0.500  443.614  31.9318  0.000588  -0.007383  3944.13  4162.72  2657.67  3400.85  3909.0  6316.0  6282.0  4138.0  6460.0  6445.0  2630.0  6790.0  6745.0  3367.0  6840.0  6798.0
  5468.749  5468.750  0.500  421.143  31.9514  0.000366  -0.006183  3693.55  4030.76  2473.94  3257.84  3659.0  5981.0  5945.0  4012.0  6332.0  6325.0  2449.0  6512.0  6470.0  3215.0  6671.0  6608.0
  5469.248  5469.250  0.500  331.686  31.9577  0.000295  -0.001666  2964.55  3142.22  1922.62  2570.52  2937.0  5126.0  5093.0  3130.0  5239.0  5234.0  1904.0  5675.0  5638.0  2543.0  5713.0  5670.0
  5469.749  5469.750  0.500  246.115  31.966  0.000501  -0.008582  2170.65  2315.93  1428.59  1952.15  2150.0  4170.0  4140.0  2311.0  4216.0  4217.0  1414.0  4971.0  4934.0  1933.0  4969.0  4934.0
  5470.251  5470.250  0.500  193.664  31.9652  0.000015  -0.012665  1755.35  1881.97  1052.71  1500.48  1744.0  3584.0  3568.0  1874.0  3677.0  3669.0  1044.0  4520.0  4494.0  1483.0  4476.0  4435.0
  5470.748  5470.750  0.500  166.95  31.9891  0.000592  0.004352  1477.9  1601.94  901.113  1359.65  1468.0  3293.0  3277.0  1599.0  3270.0  3270.0  894.0  4102.0  4079.0  1344.0  4269.0  4230.0
  5471.247  5471.250  0.500  150.766  31.9996  -0.000018  -0.003050  1351.88  1447.13  800.61  1224.82  1343.0  3101.0  3086.0  1446.0  3113.0  3116.0  794.0  3972.0  3948.0  1214.0  4135.0  4108.0
  5471.749  5471.750  0.500  136.34  32.0119  0.000000  -0.006563  1201.16  1249.75  792.409  1121.18  1191.0  2931.0  2911.0  1249.0  2906.0  2909.0  785.0  3900.0  3872.0  1109.0  4068.0  4033.0
  5472.251  5472.250  0.500  134.594  32.0191  0.000220  -0.001031  1210.94  1249.88  725.721  1123.04  1204.0  2927.0  2915.0  1247.0  2882.0  2880.0  719.0  3971.0  3943.0  1110.0  3921.0  3884.0
  5472.752  5472.750  0.500  133.546  32.0265  0.000194  0.001364  1154.74  1282.83  769.874  1069.56  1147.0  2976.0  2961.0  1282.0  2957.0  2960.0  762.0  3998.0  3966.0  1059.0  3894.0  3864.0
  5473.249  5473.250  0.500  143.679  32.033  0.000623  -0.000754  1240.37  1388.83  804.601  1168.65  1232.0  2932.0  2917.0  1386.0  3057.0  3056.0  796.0  3863.0  3830.0  1157.0  4003.0  3972.0
  5473.748  5473.750  0.500  149.018  32.0617  0.000303  -0.006269  1318.56  1481.72  826.75  1150.75  1312.0  3072.0  3062.0  1480.0  3188.0  3190.0  821.0  4043.0  4024.0  1141.0  4002.0  3977.0
  5474.251  5474.250  0.500  170.395  32.0692  -0.000330  0.002401  1548.28  1649.05  952.286  1314.8  1538.0  3354.0  3338.0  1646.0  3305.0  3305.0  946.0  4266.0  4248.0  1304.0  4296.0  4271.0
  5474.751  5474.750  0.500  189.319  32.0773  -0.000055  -0.009391  1700.99  1802.51  1052.4  1516.96  1689.0  3554.0  3536.0  1801.0  3516.0  3520.0  1044.0  4298.0  4274.0  1501.0  4486.0  4450.0
  5475.252  5475.250  0.500  211.492  32.1042  0.000368  -0.004916  1844.14  2004.24  1241.28  1700.12  1830.0  3772.0  3751.0  2002.0  3846.0  3850.0  1233.0  4698.0  4679.0  1683.0  4691.0  4656.0
  5475.749  5475.750  0.500  237.843  32.101  0.000213  -0.006043  2168.07  2254.12  1385.45  1827.35  2151.0  4126.0  4103.0  2244.0  4140.0  4131.0  1374.0  4864.0  4837.0  1809.0  4936.0  4900.0
  5476.250  5476.250  0.500  269.022  32.1065  0.000899  0.002772  2421.37  2580.45  1539.38  2096.15  2405.0  4434.0  4415.0  2575.0  4551.0  4553.0  1522.0  5081.0  5038.0  2073.0  5126.0  5084.0
  5476.749  5476.750  0.500  304.014  32.1296  0.000107  -0.007970  2721.01  2944.3  1759.22  2343.34  2699.0  4808.0  4782.0  2929.0  4989.0  4977.0  1741.0  5475.0  5435.0  2317.0  5502.0  5457.0
  5477.254  5477.250  0.500  340.023  32.1449  0.000121  0.000021  3016.13  3371.28  1898.57  2644.02  2991.0  5108.0  5080.0  3356.0  5492.0  5484.0  1879.0  5784.0  5743.0  2614.0  5772.0  5725.0
  5477.748  5477.750  0.500  380.218  32.1372  -0.000476  -0.007526  3400.51  3662.8  2328.17  2827.68  3370.0  5690.0  5657.0  3647.0  5877.0  5871.0  2303.0  6300.0  6254.0  2797.0  6236.0  6190.0
  5478.246  5478.250  0.500  417.759  32.1685  0.000761  -0.009079  3735.84  4032.43  2510.93  3159.49  3701.0  6043.0  6007.0  4011.0  6437.0  6426.0  2488.0  6619.0  6583.0  3124.0  6633.0  6583.0
  5478.753  5478.750  0.500  463.977  32.1698  0.000358  -0.003959  4126.84  4502.12  2694.85  3602.27  4086.0  6590.0  6549.0  4482.0  6940.0  6936.0  2667.0  6986.0  6941.0  3559.0  7046.0  6989.0
  5479.253  5479.250  0.500  498.413  32.1878  0.000997  -0.010909  4536.1  4734.85  2966.95  3804.92  4497.0  7033.0  7000.0  4711.0  7268.0  7261.0  2937.0  7320.0  7276.0  3762.0  7410.0  7357.0
  5479.754  5479.750  0.500  547.339  32.1998  0.001253  0.000316  4878.97  5324.44  3185.51  4235.26  4826.0  7470.0  7420.0  5274.0  7907.0  7867.0  3145.0  7720.0  7655.0  4186.0  7860.0  7803.0
  5480.250  5480.250  0.500  586.14  32.2109  -0.000702  -0.000324  5311.72  5714.35  3428.97  4425.07  5248.0  7897.0  7837.0  5661.0  8434.0  8395.0  3394.0  8105.0  8059.0  4366.0  8187.0  8115.0
  5481.283  5481.280  0.520  655.801  33.5174  0.000483  0.002177  6075.24  6693.55  4001.05  5210.91  5990.0  9008.0  8925.0  6629.0  9663.0  9620.0  3949.0  9087.0  9013.0  5136.0  9200.0  9113.0
  5482.894  5482.890  0.540  739.686  34.8666  0.000757  -0.000207  7256  7823.39  4711.87  5999.05  7156.0  10545.0  10457.0  7741.0  11218.0  11165.0  4648.0  10326.0  10241.0  5911.0  10415.0  10318.0
  5484.584  5484.580  0.570  785.791  36.8511  0.000997  0.003349  8131.3  8635.85  5263.8  6926.32  8011.0  11619.0  11513.0  8527.0  12347.0  12266.0  5186.0  11380.0  11275.0  6831.0  11651.0  11557.0
  5486.359  5486.350  0.590  796.281  38.1946  0.000441  0.005841  8480.94  9395.86  5547.67  6989.15  8364.0  12227.0  12129.0  9276.0  13313.0  13227.0  5468.0  11869.0  11765.0  6883.0  11902.0  11788.0
  5488.201  5488.190  0.620  811.014  40.2059  0.000696  -0.003999  9130.76  9860.23  6023.1  7593.46  8996.0  13000.0  12884.0  9741.0  14018.0  13937.0  5935.0  12906.0  12792.0  7482.0  12694.0  12580.0
  5490.119  5490.110  0.640  810.126  41.5353  0.000236  -0.002714  9406.78  10160.9  6216.89  7864.24  9270.0  13495.0  13378.0  10035.0  14459.0  14371.0  6128.0  13225.0  13112.0  7763.0  13180.0  13086.0
  5492.108  5492.100  0.670  803.414  43.5855  0.000393  -0.000726  9658.62  10550.4  6597.36  8210.76  9512.0  13962.0  13831.0  10417.0  15010.0  14914.0  6502.0  13685.0  13565.0  8077.0  13832.0  13686.0
  5494.177  5494.170  0.690  782.044  44.9779  0.000956  -0.016539  9880.83  10881.4  6321.52  8090.95  9733.0  14160.0  14029.0  10769.0  15346.0  15283.0  6235.0  13801.0  13689.0  7977.0  13973.0  13855.0
  5496.325  5496.320  0.720  774.132  47.0125  0.000046  -0.009962  10215  10999.5  6674.4  8505.09  10064.0  14775.0  14641.0  10859.0  15775.0  15670.0  6569.0  14539.0  14391.0  8357.0  14428.0  14257.0
  5498.546  5498.540  0.740  793.635  48.3899  0.000524  -0.003668  10815.6  11598.1  6920.06  9070.19  10656.0  15393.0  15255.0  11450.0  16454.0  16346.0  6811.0  15024.0  14872.0  8934.0  15380.0  15238.0
  5500.852  5500.840  0.770  803.298  50.4815  0.000640  -0.009647  11332.5  12181.4  7460.91  9576.87  11183.0  16371.0  16252.0  12022.0  17436.0  17318.0  7347.0  16052.0  15900.0  9435.0  16161.0  16016.0
  5503.212  5503.210  0.790  827.571  51.9169  0.000925  -0.007957  12074.6  12845  7923.8  10121.5  11895.0  17341.0  17189.0  12677.0  18322.0  18201.0  7801.0  16806.0  16645.0  9960.0  16849.0  16680.0
  5505.664  5505.660  0.820  823.233  53.9744  0.001012  -0.004830  12514.2  13375.6  8005.62  10538.1  12336.0  17896.0  17750.0  13230.0  18854.0  18770.0  7889.0  17153.0  17003.0  10383.0  17643.0  17489.0
  5508.196  5508.190  0.840  808.758  55.4439  0.000241  -0.008828  12526.2  13647.3  8200.54  10466.7  12354.0  18008.0  17868.0  13461.0  19498.0  19358.0  8088.0  17711.0  17572.0  10312.0  17793.0  17635.0
  5510.809  5510.800  0.870  789.819  57.5297  0.000939  -0.006661  12668.3  13950  8201.75  10618.1  12473.0  18298.0  18123.0  13767.0  19851.0  19717.0  8082.0  17950.0  17791.0  10450.0  18142.0  17960.0
  5513.479  5513.480  0.890  767.406  59.2163  0.000358  -0.010278  12683.4  13917  8277.46  10565.1  12507.0  18438.0  18288.0  13758.0  19878.0  19775.0  8151.0  18058.0  17884.0  10394.0  18332.0  18140.0
  5516.231  5516.230  0.920  753.516  61.3621  0.000316  -0.006655  12931.8  13928.3  8483.47  10893.8  12752.0  19028.0  18873.0  13756.0  20019.0  19893.0  8365.0  18591.0  18436.0  10726.0  18630.0  18448.0
  5519.064  5519.060  0.940  761.109  62.8389  0.000078  -0.017748  13457.4  14418.5  8783.73  11167.7  13235.0  19524.0  19314.0  14258.0  20716.0  20613.0  8666.0  19170.0  19022.0  10998.0  19289.0  19106.0
  5521.974  5521.970  0.970  767.578  65.0342  0.001383  -0.013426  13908.2  15148.5  9159.82  11702.3  13705.0  20187.0  20009.0  14952.0  21627.0  21481.0  9019.0  19798.0  19606.0  11530.0  20097.0  19917.0
  5524.965  5524.960  0.990  763.146  66.5355  0.000513  -0.016926  14204  15504.1  9183.85  11884.4  13981.0  20548.0  20344.0  15335.0  22148.0  22045.0  9051.0  20042.0  19865.0  11703.0  20547.0  20352.0
  5528.023  5528.020  1.020  750.144  68.7263  0.000924  -0.011258  14582  15601.6  9359.42  12011.6  14367.0  21236.0  21046.0  15425.0  22483.0  22367.0  9227.0  20729.0  20553.0  11842.0  20950.0  20774.0
  5531.165  5531.160  1.040  747.081  70.2449  0.000533  -0.007456  14787.5  15739.3  9644.25  12307.6  14556.0  21506.0  21293.0  15536.0  22808.0  22653.0  9512.0  21059.0  20889.0  12129.0  21399.0  21211.0
  5534.374  5534.370  1.070  749.052  72.4682  0.000763  -0.007151  15183.2  16481.4  9900.47  12717.3  14945.0  22136.0  21916.0  16287.0  23672.0  23539.0  9762.0  21718.0  21537.0  12522.0  22262.0  22049.0
  5537.667  5537.660  1.090  762.235  74.0428  0.000435  -0.002038  15844.3  17051.8  10352.6  13189.3  15600.0  23099.0  22879.0  16848.0  24566.0  24427.0  10208.0  22505.0  22320.0  12991.0  22790.0  22580.0
  5541.024  5541.020  1.120  771.199  76.2669  0.000250  -0.010568  16552  17695.2  10958.3  13611.5  16329.0  24040.0  23860.0  17489.0  25449.0  25314.0  10788.0  23478.0  23250.0  13379.0  23600.0  23335.0
  5544.478  5544.470  1.140  774.585  77.8475  0.001170  -0.005937  16839.8  18365.6  11089.9  14004.2  16581.0  24493.0  24263.0  18114.0  26202.0  26011.0  10932.0  24036.0  23835.0  13772.0  24284.0  24025.0
  5547.986  5547.980  1.170  777.684  80.1094  0.000798  -0.012824  17596.1  18796.9  11302.7  14604.1  17321.0  25467.0  25223.0  18561.0  26766.0  26601.0  11137.0  24700.0  24483.0  14372.0  25063.0  24814.0
  5551.588  5551.580  1.190  773.881  81.711  0.000286  -0.006251  17778.7  19203.8  11551.1  14701.1  17494.0  25902.0  25644.0  18957.0  27515.0  27339.0  11379.0  25232.0  25005.0  14473.0  25321.0  25078.0
  5555.255  5555.250  1.220  782.439  84.067  0.001797  -0.004181  18210.4  20199.5  12102.6  15264.8  17938.0  26422.0  26186.0  19922.0  28778.0  28572.0  11920.0  26288.0  26049.0  15023.0  26329.0  26070.0
  5559.007  5559.000  1.240  785.641  85.6772  0.000403  -0.009253  18761.4  20512.9  12419.2  15618  18483.0  27417.0  27179.0  20255.0  29364.0  29189.0  12232.0  26863.0  26620.0  15384.0  27031.0  26790.0
  5562.827  5562.820  1.270  791.594  88.0377  0.001136  -0.011656  19504.3  21198.7  12737.6  16249.5  19189.0  28266.0  27984.0  20926.0  30216.0  30028.0  12537.0  27661.0  27393.0  15985.0  27948.0  27664.0
  5566.722  5566.720  1.290  801.287  89.6568  0.001910  -0.008692  20374.5  21665.1  13050.8  16750.5  20043.0  29410.0  29118.0  21380.0  30980.0  30780.0  12856.0  28455.0  28205.0  16467.0  28855.0  28546.0
  5570.696  5570.690  1.320  801.38  92.0312  0.000478  -0.013519  20873.1  22408  13417.4  17053.4  20535.0  30207.0  29910.0  22119.0  32204.0  32008.0  13209.0  29232.0  28958.0  16758.0  29515.0  29187.0
  5574.755  5574.750  1.340  812.469  93.7104  0.001140  -0.011304  21155.1  23168.9  13872.9  17940  20821.0  30653.0  30364.0  22869.0  33201.0  33001.0  13649.0  30194.0  29896.0  17666.0  30682.0  30409.0
  5578.873  5578.870  1.370  809.228  96.0599  0.000381  -0.020340  21589.6  23477.6  14330.4  18336.7  21241.0  31462.0  31155.0  23159.0  33418.0  33192.0  14095.0  30927.0  30613.0  18042.0  31259.0  30955.0
  5583.086  5583.080  1.390  809.27  97.7762  0.001336  -0.008420  22507.8  24020  14235  18364.5  22143.0  32380.0  32065.0  23713.0  34321.0  34119.0  14027.0  31289.0  31028.0  18063.0  31578.0  31259.0
  5587.366  5587.360  1.420  805.386  100.191  0.001269  -0.011323  22683.5  24481.9  14749.2  18777.4  22302.0  32776.0  32435.0  24154.0  35059.0  34831.0  14527.0  31860.0  31579.0  18478.0  32728.0  32416.0
  5591.715  5591.710  1.440  810.87  101.998  0.001880  -0.006761  23170.9  25260.3  15233.6  19042.7  22796.0  33755.0  33429.0  24873.0  35838.0  35537.0  14971.0  32858.0  32500.0  18707.0  33260.0  32887.0
  5596.156  5596.150  1.470  815.101  104.505  0.000991  -0.011485  23998.8  25940.6  15633.7  19608.8  23602.0  34729.0  34383.0  25581.0  36862.0  36609.0  15385.0  33635.0  33314.0  19293.0  34059.0  33730.0
  5600.659  5600.650  1.490  807.251  106.363  0.001782  -0.012341  23886  26163.8  15860.7  19951.4  23503.0  34862.0  34530.0  25825.0  37435.0  37213.0  15619.0  34378.0  34075.0  19626.0  34629.0  34288.0
  5605.242  5605.240  1.520  806.092  108.96  0.001632  -0.009730  24655.2  26674.2  16054.9  20447.3  24255.0  35961.0  35614.0  26300.0  38405.0  38137.0  15794.0  34832.0  34488.0  20111.0  35441.0  35088.0
  5609.909  5609.900  1.540  809.158  110.871  0.001437  -0.011894  25003.6  27208.8  16468.8  21031  24622.0  36415.0  36099.0  26842.0  39038.0  38788.0  16220.0  35738.0  35429.0  20660.0  36615.0  36211.0
  5614.653  5614.640  1.570  808.556  113.505  0.001002  -0.010260  25675.3  28048.3  16858.9  21192.3  25270.0  37639.0  37296.0  27665.0  40158.0  39896.0  16597.0  36603.0  36272.0  20857.0  37105.0  36762.0
  5619.462  5619.450  1.590  824.368  115.539  0.001217  -0.014373  26876.5  29018.6  17387.9  21963.8  26430.0  39102.0  38720.0  28610.0  41464.0  41182.0  17107.0  37606.0  37246.0  21604.0  38419.0  38048.0
  5624.335  5624.340  1.620  828.039  117.348  0.001717  -0.008708  27481.8  29453.5  17647.2  22586  27019.0  40049.0  39650.0  29010.0  42457.0  42128.0  17348.0  38153.0  37756.0  22197.0  39104.0  38693.0
  5629.307  5629.310  1.640  835.968  119.379  0.001521  -0.016704  27920.2  30528  18104  23244.6  27443.0  40488.0  40074.0  30074.0  43575.0  43250.0  17804.0  39183.0  38794.0  22832.0  40005.0  39566.0
  5634.343  5634.350  1.670  841.554  122.296  0.001333  -0.024248  28813.7  31259.9  18909.3  23936.1  28319.0  41924.0  41497.0  30802.0  44546.0  44225.0  18601.0  40532.0  40145.0  23527.0  41027.0  40606.0
  5639.470  5639.470  1.690  840.47  123.98  0.001950  -0.006424  29063.8  31673  19191.3  24273.6  28578.0  42500.0  42087.0  31177.0  45381.0  45010.0  18863.0  41319.0  40893.0  23841.0  41888.0  41430.0
  5644.663  5644.660  1.720  839.136  126.541  0.001289  -0.018414  29651.6  32366.3  19553.5  24614  29125.0  43293.0  42827.0  31880.0  46308.0  45960.0  19224.0  42193.0  41770.0  24190.0  42746.0  42305.0
  5649.923  5649.930  1.740  836.383  128.308  0.002316  -0.009558  30092.4  32541.4  19843.3  24837.3  29586.0  43713.0  43283.0  32067.0  46758.0  46427.0  19514.0  42706.0  42289.0  24432.0  43038.0  42632.0
  5655.269  5655.280  1.770  846.059  130.98  0.001231  -0.022236  30937  33713.6  20478.2  25687.9  30415.0  45024.0  44583.0  33198.0  48108.0  47737.0  20124.0  44036.0  43579.0  25231.0  44613.0  44132.0
  5660.690  5660.700  1.790  847.129  132.88  0.001480  -0.021074  31746.4  34157.1  20431.8  26230.8  31166.0  46133.0  45620.0  33639.0  49084.0  48715.0  20078.0  44203.0  43741.0  25770.0  45270.0  44793.0
  5666.194  5666.200  1.820  845.492  135.508  0.001440  -0.011748  32048.7  34957.7  20988  26576.3  31479.0  46715.0  46218.0  34404.0  49929.0  49520.0  20600.0  45462.0  44937.0  26100.0  46198.0  45696.0
  5671.774  5671.780  1.840  842.003  137.296  0.001968  -0.020228  32449.5  35235.6  21107.9  26810.5  31901.0  47260.0  46799.0  34700.0  50493.0  50112.0  20745.0  45399.0  44930.0  26342.0  46562.0  46076.0
  5677.420  5677.430  1.870  851.884  140.063  0.002017  -0.018056  33498.1  36077.3  21992.4  27749.4  32909.0  48792.0  48288.0  35551.0  51896.0  51541.0  21615.0  47348.0  46869.0  27270.0  47828.0  47342.0
  5683.155  5683.160  1.890  852.888  142.15  0.001740  -0.021752  33933.5  36786  22578.1  27940.1  33305.0  49370.0  48814.0  36193.0  52860.0  52420.0  22184.0  48344.0  47844.0  27445.0  48682.0  48168.0
  5688.954  5688.960  1.920  852.854  144.854  0.001330  -0.019307  34578  37630.2  22700.9  28629.8  33948.0  50548.0  49997.0  37061.0  53971.0  53578.0  22315.0  48960.0  48475.0  28111.0  49690.0  49147.0
  5694.834  5694.840  1.940  862.06  146.784  0.001658  -0.001989  35395.6  38687.8  23163.3  29290.2  34734.0  51815.0  51231.0  38060.0  55524.0  55066.0  22769.0  49782.0  49290.0  28761.0  50797.0  50249.0
  5700.804  5700.800  1.970  867.096  149.443  0.001192  -0.004332  35915.4  39401.8  24060.8  30203.7  35272.0  52676.0  52124.0  38768.0  56311.0  55854.0  23647.0  51491.0  50980.0  29643.0  52012.0  51428.0
  5706.828  5706.830  1.990  866.906  151.296  0.000688  -0.009272  36928.8  39759.7  23929.9  30541.4  36227.0  53712.0  53094.0  39088.0  57025.0  56517.0  23510.0  51497.0  50964.0  29983.0  52835.0  52259.0
  5712.936  5712.940  2.020  873.26  154.012  0.001076  -0.020672  37838.3  40831  24830.3  30993.4  37143.0  54915.0  54321.0  40149.0  58581.0  58076.0  24373.0  53380.0  52789.0  30419.0  53590.0  52992.0
  5719.114  5719.120  2.040  875.564  155.919  0.001992  -0.016807  38297  41362.2  25013.4  31844.1  37621.0  55688.0  55128.0  40659.0  59472.0  58944.0  24551.0  53754.0  53154.0  31265.0  55025.0  54437.0
  5725.386  5725.390  2.070  875.589  158.627  0.001462  -0.024833  39075.7  42134.5  25497.5  32184.1  38353.0  57048.0  56430.0  41425.0  60745.0  60219.0  25041.0  54923.0  54345.0  31590.0  55809.0  55197.0
  5731.711  5731.720  2.090  884.169  160.506  0.002241  -0.013771  39563  43252.3  26291.1  32807.8  38816.0  57773.0  57126.0  42527.0  62132.0  61605.0  25803.0  56383.0  55759.0  32198.0  56921.0  56294.0
  5738.137  5738.140  2.120  882.7  163.162  0.003041  -0.011074  40277.1  44204.4  26472.8  33068.9  39552.0  58868.0  58263.0  43431.0  63417.0  62836.0  26002.0  56835.0  56248.0  32480.0  57821.0  57230.0
  5744.627  5744.630  2.140  892.107  165.143  0.001268  -0.018097  41389.3  44721.3  27030.7  34184.4  40614.0  60268.0  59611.0  43951.0  64279.0  63710.0  26528.0  58072.0  57430.0  33570.0  59073.0  58465.0
  5751.189  5751.190  2.170  894.119  168.435  0.002529  -0.015505  42151.4  45303.4  28103.2  35043.4  41340.0  61660.0  60960.0  44530.0  65396.0  64829.0  27569.0  60178.0  59498.0  34391.0  60382.0  59725.0
  5757.837  5757.840  2.190  902.332  170.366  0.001596  -0.024002  42946.7  46702.3  28481  35596.9  42096.0  62878.0  62134.0  45874.0  66781.0  66164.0  27943.0  61022.0  60342.0  34909.0  61600.0  60891.0
  5764.543  5764.550  2.220  907.543  173.075  0.002629  -0.018879  43631  47800  29276  36365.7  42773.0  63764.0  63019.0  47013.0  68592.0  68054.0  28713.0  62260.0  61548.0  35683.0  63118.0  62432.0
  5771.344  5771.350  2.240  912.856  174.895  0.001861  -0.024933  44738.9  48638.2  29428.8  36848.5  43859.0  65229.0  64474.0  47792.0  69802.0  69194.0  28892.0  62933.0  62277.0  36148.0  63927.0  63219.0
  5778.220  5778.220  2.270  917.048  177.555  0.002308  -0.019189  45382.4  49819  29904.6  37720.3  44504.0  66306.0  65561.0  48895.0  71530.0  70831.0  29334.0  64437.0  63716.0  36971.0  64965.0  64191.0
  5785.175  5785.170  2.290  920.644  179.43  0.001713  -0.023004  45970  50446  30885.6  37889.9  45070.0  67031.0  66264.0  49503.0  72383.0  71667.0  30273.0  65570.0  64791.0  37142.0  65909.0  65135.0
  5792.184  5792.190  2.320  924.848  182.034  0.002520  -0.021599  47148  51228.8  31092.9  38884.4  46221.0  68938.0  68152.0  50335.0  73656.0  73023.0  30500.0  66439.0  65701.0  38101.0  67121.0  66308.0
  5799.286  5799.290  2.340  929.708  183.827  0.002444  -0.020293  47838.8  51924.9  31529.3  39612  46887.0  70098.0  69287.0  50973.0  74527.0  73822.0  30916.0  67247.0  66476.0  38834.0  68767.0  67978.0
  5806.471  5806.470  2.370  930.727  186.397  0.001944  -0.016186  48601.4  52763.2  31756.7  40363.7  47653.0  70990.0  70196.0  51785.0  75759.0  75029.0  31150.0  68436.0  67678.0  39569.0  69509.0  68707.0
  5813.722  5813.720  2.390  934.445  188.203  0.003096  -0.015718  49374.4  53777.4  32172.6  40541.4  48348.0  72146.0  71251.0  52736.0  77278.0  76477.0  31545.0  69191.0  68398.0  39729.0  70250.0  69416.0
  5821.057  5821.050  2.420  942.586  190.607  0.003294  -0.015475  50285.8  54364  33262.1  41751.9  49271.0  73543.0  72680.0  53341.0  78515.0  77747.0  32605.0  71056.0  70232.0  40934.0  71682.0  70868.0
  5828.446  5828.450  2.440  949.105  192.243  0.001851  -0.024151  51077.7  55284.8  33734.6  42361.9  50030.0  74735.0  73838.0  54271.0  79430.0  78694.0  33090.0  71617.0  70833.0  41499.0  72923.0  72043.0
  5835.927  5835.930  2.470  957.24  194.589  0.003633  -0.021244  52094.9  56571.3  34526.8  43075.3  51031.0  76227.0  75324.0  55536.0  81221.0  80479.0  33884.0  73165.0  72406.0  42179.0  74193.0  73268.0
  5843.495  5843.490  2.490  958.538  196.158  0.002167  -0.021551  52535.2  56970.2  34744  43775.9  51436.0  77067.0  76117.0  55891.0  81770.0  80969.0  34067.0  74187.0  73356.0  42879.0  75244.0  74334.0
  5851.122  5851.120  2.520  967.807  198.424  0.002737  -0.010216  53807  58426.3  35590.4  44212.3  52675.0  78700.0  77727.0  57312.0  83824.0  83002.0  34882.0  75500.0  74626.0  43315.0  76095.0  75189.0
  5858.832  5858.830  2.540  973.357  199.611  0.002441  -0.018300  54254  59004.3  35907  45127.9  53147.0  79697.0  78766.0  57889.0  84564.0  83750.0  35213.0  76201.0  75364.0  44166.0  77637.0  76641.0
  5866.616  5866.610  2.570  980.724  199.465  0.001553  -0.027731  54774.5  59469.5  36144.8  45231.7  53592.0  80276.0  79239.0  58284.0  85705.0  84792.0  35389.0  77089.0  76119.0  44329.0  78113.0  77214.0
  5874.486  5874.480  2.590  984.332  205.85  0.001951  -0.016617  56783.1  61718.6  37448.1  46675.4  55577.0  82977.0  81953.0  60476.0  88553.0  87613.0  36687.0  79927.0  78988.0  45696.0  80749.0  79754.0
  5882.418  5882.410  2.620  991.91  207.133  0.003182  -0.015456  57595.2  62503.6  37931.9  47427  56361.0  83995.0  82943.0  61255.0  89881.0  88944.0  37146.0  80556.0  79575.0  46416.0  81390.0  80357.0
  5890.436  5890.430  2.640  992.132  208.271  0.002382  -0.027069  57628.8  63248.5  38051.4  47703.6  56418.0  84531.0  83507.0  61942.0  91043.0  90036.0  37264.0  81376.0  80389.0  46740.0  82246.0  81297.0
  5898.526  5898.520  2.670  1005.61  210.743  0.004164  -0.010594  59364.5  64533.1  38892.5  49135  58121.0  86822.0  85788.0  63221.0  92913.0  91924.0  38070.0  82789.0  81751.0  48091.0  84608.0  83555.0
  5906.684  5906.680  2.690  1010.83  211.546  0.003163  -0.019328  59921.8  65175  39275.2  49464.7  58653.0  87871.0  86808.0  63886.0  93838.0  92894.0  38491.0  84062.0  83114.0  48427.0  84993.0  83956.0
  5914.933  5914.930  2.720  1017.8  209.896  0.001934  -0.031705  59662.6  64955.6  39258.8  49755.3  58379.0  87022.0  85923.0  63636.0  93545.0  92540.0  38465.0  83868.0  82891.0  48715.0  84606.0  83568.0
  5923.252  5923.250  2.740  1024.24  216.364  0.002558  -0.022528  62056.6  66952.6  41253.8  51345.1  60694.0  91668.0  90507.0  65546.0  96778.0  95696.0  40409.0  87088.0  86074.0  50254.0  88641.0  87554.0
  5931.643  5931.640  2.770  1033.66  212.248  0.003141  -0.025974  61248.3  66529  40704.4  50911  59942.0  89983.0  88876.0  65218.0  96113.0  95148.0  39878.0  86415.0  85410.0  49855.0  87223.0  86177.0
  5940.118  5940.110  2.790  1040.42  201.279  0.002544  -0.020973  58611.7  63831.1  38558.2  48412.8  57369.0  88312.0  87216.0  62618.0  93401.0  92497.0  37801.0  82835.0  81892.0  47407.0  85935.0  84885.0
  5948.665  5948.660  2.820  1050.23  223.093  0.003060  -0.022864  65809.8  70997.2  43317.4  54173.8  64356.0  96709.0  95494.0  69502.0  103238.0  102116.0  42377.0  92114.0  90950.0  52989.0  92651.0  91470.0
  5957.285  5957.280  2.840  1056.83  223.44  0.004803  -0.026883  65993.6  71954.3  43477.7  54712.8  64549.0  97867.0  96662.0  70405.0  104457.0  103277.0  42553.0  92459.0  91329.0  53561.0  93983.0  92869.0
  5965.986  5965.980  2.870  1060.43  224.889  0.003369  -0.018961  66819.3  72149.8  44000.5  55510.1  65293.0  99516.0  98201.0  70611.0  106079.0  104908.0  43075.0  94170.0  93048.0  54308.0  95447.0  94262.0
  5974.767  5974.760  2.890  1069.39  225.498  0.003685  -0.025136  67750.3  73222.7  43908.3  56263.4  66222.0  102426.0  101124.0  71604.0  109273.0  108007.0  42937.0  95422.0  94186.0  55003.0  97015.0  95746.0
  5983.617  5983.610  2.920  1081.98  225.958  0.002595  -0.024820  68386.2  74317.2  44515  57265.1  66724.0  107040.0  105527.0  72641.0  114482.0  113149.0  43526.0  99517.0  98248.0  55960.0  101660.0  100326.0
  5992.546  5992.540  2.940  1153.6  231.243  0.002594  -0.030020  73415.6  80660.8  44152.7  68533.6  70180.0  208232.0  203124.0  76859.0  222486.0  216640.0  42425.0  187855.0  183823.0  65810.0  193975.0  189806.0
  6001.543  6001.540  2.970  1221.75  231.713  0.003170  -0.021273  76401.5  85991.8  44156.9  76545.3  72033.0  277028.0  268290.0  80559.0  297860.0  287225.0  41926.0  248152.0  241329.0  72527.0  257216.0  249848.0
  6010.623  6010.620  2.990  1256.24  232.445  0.002336  -0.035139  78986.1  88416.4  44804.8  79800.1  74075.0  303563.0  293145.0  82261.0  323347.0  310383.0  42372.0  269713.0  261766.0  75367.0  279724.0  271390.0
  6019.784  6019.780  3.020  1254.83  234.028  0.003792  -0.027630  79209.6  88947.1  45278.7  80229  74352.0  303400.0  293161.0  82831.0  323742.0  310961.0  42867.0  269714.0  261984.0  75806.0  279142.0  270857.0
  6029.013  6029.010  3.040  1264.48  235.142  0.003115  -0.026980  80350.9  89773.4  45918.9  81288.9  75383.0  308370.0  297890.0  83578.0  329116.0  316138.0  43436.0  274275.0  266259.0  76781.0  283419.0  274977.0
  6038.323  6038.320  3.070  1280.7  236.905  0.003848  -0.030168  81470.7  91459.3  46609.6  83863.4  76189.0  326425.0  314780.0  84809.0  348093.0  333547.0  43962.0  289240.0  280306.0  78988.0  301068.0  291689.0
  6047.714  6047.710  3.090  1279.66  238.74  0.003562  -0.028101  81913.5  92935.8  46935.6  83720.7  76832.0  314002.0  303280.0  86497.0  335582.0  322288.0  44403.0  278745.0  270629.0  79074.0  289873.0  281273.0
  6057.172  6057.170  3.120  1278.11  240.072  0.003624  -0.022022  82471.9  92654  47647.5  84066.4  77412.0  312649.0  302066.0  86340.0  334448.0  321456.0  45079.0  278563.0  270394.0  79411.0  288718.0  280084.0
  6066.716  6066.710  3.140  1291.95  240.694  0.003674  -0.031049  83477.3  94053.6  48547.7  84887  78326.0  317906.0  307123.0  87484.0  339741.0  326044.0  45911.0  281795.0  273451.0  80217.0  292313.0  283727.0
  6076.325  6076.320  3.170  1312.09  242.184  0.003975  -0.030143  85553.5  96058.3  48801.9  87354  80125.0  330834.0  319315.0  89179.0  352678.0  338125.0  46127.0  293014.0  284413.0  82296.0  304107.0  294520.0
  6086.015  6086.010  3.190  1326.49  242.518  0.005683  -0.010659  86405.8  97429.5  48928.2  88933.9  80709.0  343889.0  331376.0  90271.0  366501.0  351056.0  46133.0  304549.0  295150.0  83637.0  316694.0  306474.0
  6095.782  6095.780  3.220  1326.12  243.596  0.002442  -0.036237  87355.8  97639.6  49330.2  88713.8  81681.0  342822.0  330559.0  90604.0  365706.0  350692.0  46543.0  303200.0  293924.0  83573.0  312158.0  302393.0
  6105.622  6105.620  3.240  1322.1  243.516  0.004166  -0.033126  86751.8  97711.5  49507.4  87981.7  81284.0  333266.0  321664.0  90807.0  356225.0  341743.0  46827.0  294281.0  285710.0  83051.0  305482.0  296291.0
  6115.539  6115.540  3.270  1328.88  244.163  0.005346  -0.021496  87594.2  97814.7  50212.5  88841.7  82093.0  334495.0  322873.0  91094.0  355866.0  342002.0  47455.0  294624.0  285747.0  83916.0  304607.0  295531.0
  6120.533  6120.530  3.280  1332.73  244.111  0.004067  -0.028523  88197.7  97844.2  50610.4  88681.1  82672.0  337485.0  325870.0  90964.0  358768.0  344252.0  47886.0  296596.0  288018.0  83700.0  308226.0  298885.0